Frequency (Hz)	Level (dB)
46.875000	-30.923986
93.750000	-42.507580
140.625000	-53.743279
187.500000	-50.823780
234.375000	-50.210003
281.250000	-53.398640
328.125000	-56.998928
375.000000	-59.358433
421.875000	-61.320503
468.750000	-62.106312
515.625000	-61.230221
562.500000	-60.889980
609.375000	-62.869534
656.250000	-62.982941
703.125000	-63.648869
750.000000	-65.593430
796.875000	-66.090790
843.750000	-66.488319
890.625000	-67.600838
937.500000	-67.502464
984.375000	-66.150757
1031.250000	-65.929138
1078.125000	-66.837494
1125.000000	-67.805382
1171.875000	-67.284508
1218.750000	-66.944611
1265.625000	-67.050560
1312.500000	-67.127518
1359.375000	-66.976265
1406.250000	-66.264175
1453.125000	-65.971909
1500.000000	-65.790894
1546.875000	-65.472382
1593.750000	-66.079643
1640.625000	-67.462700
1687.500000	-68.000229
1734.375000	-67.893600
1781.250000	-68.048897
1828.125000	-67.389488
1875.000000	-68.025131
1921.875000	-68.229813
1968.750000	-68.684456
2015.625000	-68.657555
2062.500000	-69.638374
2109.375000	-69.560982
2156.250000	-69.092964
2203.125000	-69.426567
2250.000000	-69.542183
2296.875000	-69.941040
2343.750000	-71.386856
2390.625000	-70.207832
2437.500000	-69.421501
2484.375000	-68.715157
2531.250000	-68.236763
2578.125000	-68.649582
2625.000000	-69.152229
2671.875000	-69.595909
2718.750000	-70.043968
2765.625000	-69.638748
2812.500000	-69.669060
2859.375000	-68.667694
2906.250000	-67.334045
2953.125000	-66.803047
3000.000000	-66.849091
3046.875000	-67.084648
3093.750000	-67.067673
3140.625000	-66.748787
3187.500000	-67.277344
3234.375000	-67.807213
3281.250000	-68.067177
3328.125000	-68.351494
3375.000000	-68.216171
3421.875000	-67.670647
3468.750000	-67.730125
3515.625000	-67.834366
3562.500000	-68.066162
3609.375000	-68.322388
3656.250000	-68.334778
3703.125000	-68.916710
3750.000000	-69.234245
3796.875000	-69.206055
3843.750000	-68.573074
3890.625000	-68.465218
3937.500000	-68.338661
3984.375000	-68.208939
4031.250000	-67.531395
4078.125000	-67.496788
4125.000000	-68.498566
4171.875000	-68.012054
4218.750000	-68.375473
4265.625000	-68.113022
4312.500000	-68.879578
4359.375000	-68.861816
4406.250000	-68.770844
4453.125000	-68.412018
4500.000000	-68.528831
4546.875000	-67.306320
4593.750000	-68.523964
4640.625000	-65.105354
4687.500000	-66.794548
4734.375000	-68.795990
4781.250000	-69.347420
4828.125000	-69.272690
4875.000000	-69.212212
4921.875000	-70.321747
4968.750000	-70.412735
5015.625000	-69.530823
5062.500000	-70.187401
5109.375000	-68.777260
5156.250000	-69.273567
5203.125000	-70.895287
5250.000000	-70.246819
5296.875000	-70.291039
5343.750000	-70.680611
5390.625000	-68.691437
5437.500000	-68.805420
5484.375000	-68.414169
5531.250000	-69.576096
5578.125000	-69.058945
5625.000000	-70.144043
5671.875000	-70.845451
5718.750000	-71.243652
5765.625000	-71.119995
5812.500000	-71.033356
5859.375000	-70.637016
5906.250000	-70.873344
5953.125000	-71.159676
6000.000000	-70.364166
6046.875000	-70.654144
6093.750000	-71.182335
6140.625000	-71.193153
6187.500000	-71.096405
6234.375000	-70.918999
6281.250000	-71.460358
6328.125000	-71.380943
6375.000000	-71.388641
6421.875000	-71.879547
6468.750000	-71.763489
6515.625000	-71.084724
6562.500000	-71.382256
6609.375000	-73.003548
6656.250000	-72.465286
6703.125000	-72.201126
6750.000000	-73.100853
6796.875000	-73.145332
6843.750000	-72.679482
6890.625000	-72.263870
6937.500000	-72.754059
6984.375000	-72.622276
7031.250000	-72.430283
7078.125000	-72.219482
7125.000000	-72.336533
7171.875000	-72.943230
7218.750000	-72.619926
7265.625000	-73.151108
7312.500000	-72.767624
7359.375000	-72.909340
7406.250000	-72.840599
7453.125000	-73.630821
7500.000000	-73.721390
7546.875000	-72.788315
7593.750000	-72.777916
7640.625000	-72.818314
7687.500000	-73.194351
7734.375000	-73.002357
7781.250000	-73.028435
7828.125000	-72.403679
7875.000000	-72.469673
7921.875000	-72.456696
7968.750000	-72.807724
8015.625000	-73.199692
8062.500000	-73.497528
8109.375000	-72.953377
8156.250000	-73.136734
8203.125000	-73.647705
8250.000000	-73.058708
8296.875000	-72.827240
8343.750000	-72.852386
8390.625000	-73.445412
8437.500000	-73.213173
8484.375000	-73.064369
8531.250000	-73.644043
8578.125000	-72.875969
8625.000000	-72.726585
8671.875000	-73.092964
8718.750000	-72.835083
8765.625000	-72.896591
8812.500000	-73.051529
8859.375000	-72.203323
8906.250000	-71.917480
8953.125000	-73.499100
9000.000000	-73.270096
9046.875000	-73.216469
9093.750000	-72.771584
9140.625000	-72.825882
9187.500000	-72.316826
9234.375000	-73.014633
9281.250000	-73.343826
9328.125000	-73.420586
9375.000000	-73.607765
9421.875000	-73.534050
9468.750000	-73.048401
9515.625000	-73.127556
9562.500000	-73.371666
9609.375000	-72.906227
9656.250000	-72.939865
9703.125000	-73.498245
9750.000000	-73.407967
9796.875000	-73.294624
9843.750000	-73.767128
9890.625000	-73.511574
9937.500000	-73.135109
9984.375000	-72.536720
10031.250000	-73.637459
10078.125000	-73.950722
10125.000000	-74.131744
10171.875000	-74.544182
10218.750000	-74.794769
10265.625000	-74.066795
10312.500000	-72.996292
10359.375000	-73.340393
10406.250000	-73.486000
10453.125000	-74.219086
10500.000000	-74.774002
10546.875000	-74.189537
10593.750000	-73.985611
10640.625000	-73.428665
10687.500000	-73.648056
10734.375000	-73.455437
10781.250000	-73.367264
10828.125000	-73.171768
10875.000000	-74.043495
10921.875000	-74.784187
10968.750000	-74.699127
11015.625000	-74.164093
11062.500000	-74.602982
11109.375000	-74.315834
11156.250000	-75.359802
11203.125000	-74.675522
11250.000000	-75.136482
11296.875000	-75.212814
11343.750000	-74.036880
11390.625000	-74.927612
11437.500000	-75.021431
11484.375000	-74.819321
11531.250000	-75.220291
11578.125000	-75.529274
11625.000000	-74.351494
11671.875000	-73.943916
11718.750000	-74.492691
11765.625000	-74.145485
11812.500000	-75.089172
11859.375000	-75.136703
11906.250000	-75.232796
11953.125000	-75.014427
12000.000000	-75.110390
12046.875000	-75.490082
12093.750000	-74.906601
12140.625000	-74.715088
12187.500000	-75.036209
12234.375000	-74.911896
12281.250000	-74.526176
12328.125000	-74.778168
12375.000000	-75.321098
12421.875000	-75.530365
12468.750000	-75.636421
12515.625000	-75.534645
12562.500000	-75.444809
12609.375000	-75.723335
12656.250000	-75.177902
12703.125000	-75.087654
12750.000000	-76.396385
12796.875000	-76.717628
12843.750000	-76.470406
12890.625000	-75.839050
12937.500000	-75.637253
12984.375000	-75.679016
13031.250000	-75.679962
13078.125000	-76.233574
13125.000000	-76.024666
13171.875000	-75.943680
13218.750000	-76.712257
13265.625000	-76.893997
13312.500000	-76.535408
13359.375000	-76.894447
13406.250000	-75.550110
13453.125000	-75.528969
13500.000000	-76.762474
13546.875000	-77.389931
13593.750000	-77.196655
13640.625000	-77.137291
13687.500000	-75.738815
13734.375000	-75.994278
13781.250000	-76.151649
13828.125000	-76.341614
13875.000000	-76.273758
13921.875000	-75.749138
13968.750000	-76.330826
14015.625000	-75.984924
14062.500000	-76.055061
14109.375000	-75.871574
14156.250000	-76.526970
14203.125000	-77.637619
14250.000000	-78.050018
14296.875000	-77.837883
14343.750000	-76.825470
14390.625000	-75.956924
14437.500000	-76.746490
14484.375000	-77.445190
14531.250000	-77.356102
14578.125000	-77.447411
14625.000000	-76.969482
14671.875000	-77.769066
14718.750000	-77.474167
14765.625000	-76.946701
14812.500000	-77.126534
14859.375000	-77.785141
14906.250000	-77.200134
14953.125000	-76.805046
15000.000000	-76.724655
15046.875000	-76.874733
15093.750000	-77.772026
15140.625000	-77.565643
15187.500000	-77.427116
15234.375000	-77.347534
15281.250000	-76.393234
15328.125000	-76.384956
15375.000000	-77.285393
15421.875000	-77.626099
15468.750000	-77.509262
15515.625000	-77.824883
15562.500000	-77.250481
15609.375000	-77.330063
15656.250000	-78.099991
15703.125000	-77.195152
15750.000000	-76.033051
15796.875000	-75.952675
15843.750000	-76.362633
15890.625000	-77.147781
15937.500000	-78.035065
15984.375000	-78.323624
16031.250000	-78.174675
16078.125000	-77.845490
16125.000000	-78.119324
16171.875000	-77.987053
16218.750000	-77.336334
16265.625000	-78.076538
16312.500000	-77.235954
16359.375000	-77.464386
16406.250000	-78.138237
16453.125000	-78.111664
16500.000000	-78.183449
16546.875000	-78.646828
16593.750000	-78.508087
16640.625000	-78.613724
16687.500000	-78.106606
16734.375000	-77.861404
16781.250000	-77.701546
16828.125000	-77.896263
16875.000000	-78.191162
16921.875000	-78.008736
16968.750000	-78.920143
17015.625000	-79.123978
17062.500000	-78.436325
17109.375000	-79.078590
17156.250000	-78.417503
17203.125000	-78.230247
17250.000000	-78.863403
17296.875000	-78.105064
17343.750000	-76.942627
17390.625000	-78.142250
17437.500000	-78.956940
17484.375000	-78.889511
17531.250000	-78.608368
17578.125000	-78.478241
17625.000000	-78.842049
17671.875000	-79.038483
17718.750000	-79.286026
17765.625000	-78.300415
17812.500000	-78.114525
17859.375000	-78.463181
17906.250000	-78.688400
17953.125000	-79.551346
18000.000000	-79.045792
18046.875000	-79.071159
18093.750000	-79.057510
18140.625000	-79.223503
18187.500000	-79.658783
18234.375000	-80.366577
18281.250000	-80.278275
18328.125000	-79.569504
18375.000000	-78.741188
18421.875000	-79.976860
18468.750000	-79.764534
18515.625000	-78.984138
18562.500000	-79.611549
18609.375000	-80.210449
18656.250000	-79.783752
18703.125000	-80.310265
18750.000000	-79.219879
18796.875000	-79.544952
18843.750000	-79.197403
18890.625000	-79.869904
18937.500000	-80.054031
18984.375000	-79.517715
19031.250000	-79.510696
19078.125000	-79.387054
19125.000000	-79.976334
19171.875000	-80.300888
19218.750000	-79.628265
19265.625000	-80.056351
19312.500000	-79.810341
19359.375000	-79.399551
19406.250000	-80.919632
19453.125000	-80.129227
19500.000000	-79.894005
19546.875000	-80.581985
19593.750000	-79.771355
19640.625000	-79.923660
19687.500000	-80.984787
19734.375000	-80.250389
19781.250000	-79.442924
19828.125000	-79.803101
19875.000000	-79.845322
19921.875000	-80.335480
19968.750000	-80.916161
20015.625000	-81.136276
20062.500000	-80.487724
20109.375000	-79.935127
20156.250000	-80.554558
20203.125000	-81.046806
20250.000000	-80.870987
20296.875000	-79.862885
20343.750000	-79.959877
20390.625000	-80.059326
20437.500000	-80.649643
20484.375000	-81.232819
20531.250000	-80.291855
20578.125000	-80.441772
20625.000000	-80.547974
20671.875000	-80.743759
20718.750000	-80.996101
20765.625000	-80.764778
20812.500000	-80.834427
20859.375000	-81.225830
20906.250000	-80.800255
20953.125000	-79.920242
21000.000000	-80.120468
21046.875000	-81.427429
21093.750000	-81.377151
21140.625000	-81.490227
21187.500000	-81.043335
21234.375000	-81.375328
21281.250000	-80.673897
21328.125000	-81.043732
21375.000000	-81.668884
21421.875000	-81.874512
21468.750000	-81.428055
21515.625000	-80.847702
21562.500000	-80.698677
21609.375000	-80.144806
21656.250000	-80.816429
21703.125000	-80.605392
21750.000000	-81.292206
21796.875000	-81.145531
21843.750000	-81.757370
21890.625000	-80.781975
21937.500000	-81.013206
21984.375000	-80.632607
22031.250000	-81.427101
22078.125000	-81.876595
22125.000000	-81.889519
22171.875000	-82.335251
22218.750000	-81.889229
22265.625000	-80.825539
22312.500000	-81.277420
22359.375000	-80.252716
22406.250000	-81.670067
22453.125000	-81.214638
22500.000000	-81.274315
22546.875000	-80.664230
22593.750000	-81.689468
22640.625000	-81.598106
22687.500000	-81.804207
22734.375000	-81.607780
22781.250000	-81.571693
22828.125000	-81.855232
22875.000000	-82.430374
22921.875000	-82.901390
22968.750000	-82.744827
23015.625000	-82.959824
23062.500000	-83.469154
23109.375000	-82.677010
23156.250000	-82.776321
23203.125000	-83.238663
23250.000000	-84.103340
23296.875000	-84.446175
23343.750000	-84.173698
23390.625000	-83.493858
23437.500000	-83.742828
23484.375000	-85.095520
23531.250000	-83.951790
23578.125000	-84.274429
23625.000000	-84.114128
23671.875000	-83.940407
23718.750000	-83.735741
23765.625000	-84.925491
23812.500000	-85.371162
23859.375000	-85.356102
23906.250000	-86.300179
23953.125000	-85.691605
